GRAVITY X (m/s²),GRAVITY Y (m/s²),GRAVITY Z (m/s²),LINEAR ACCELERATION X (m/s²),LINEAR ACCELERATION Y (m/s²),LINEAR ACCELERATION Z (m/s²),MAGNETIC FIELD X (μT),MAGNETIC FIELD Y (μT),MAGNETIC FIELD Z (μT),ORIENTATION X (°),ORIENTATION Y (°),ORIENTATION Z (°),Time since start in ms ,YYYY-MO-DD HH-MI-SS_SSS
9.6295,-0.3805,1.8341,-0.2843,-0.1439,-0.1377,-39.7,-15.15,-7.8,181.46,2.51,-79.29,14,2014-12-29 23:50:32:587
9.6488,-0.2831,1.7482,0.0837,0.0057,0.0819,-39.65,-14.85,-7.2,178.36,2.25,-79.37,314,2014-12-29 23:50:32:887
9.6485,-0.2736,1.7511,-0.0635,-0.0058,0.1218,-39.55,-14.35,-6.95,178.97,1.62,-79.69,614,2014-12-29 23:50:33:187
9.6688,-0.3043,1.6295,-0.429,-0.2003,-0.2141,-40.2,-13.7,-7.05,180.96,1.78,-80.43,913,2014-12-29 23:50:33:486
9.6518,-0.3046,1.728,-0.1055,-0.0807,-0.0322,-39.6,-14.45,-7.8,183.1,1.78,-79.85,1214,2014-12-29 23:50:33:787
9.6519,-0.3161,1.725,0.019,-0.0096,-0.1668,-39.55,-15.1,-7.55,182.94,1.85,-79.87,1514,2014-12-29 23:50:34:087
9.6519,-0.3375,1.7207,-0.0353,-0.0132,0.1174,-40.0,-13.9,-6.6,179.62,1.95,-79.93,1814,2014-12-29 23:50:34:387
9.6356,-0.3364,1.8102,-0.0483,-0.2401,1.2349,-39.95,-13.95,-6.95,178.12,1.96,-79.36,2114,2014-12-29 23:50:34:687
9.6389,-0.3387,1.7918,-0.0476,-0.0254,-0.1329,-40.0,-15.1,-8.15,181.69,1.94,-79.37,2414,2014-12-29 23:50:34:987
9.6394,-0.2952,1.7973,0.0582,0.0031,0.0527,-40.05,-14.6,-7.5,182.17,1.86,-79.5,2715,2014-12-29 23:50:35:288
9.6395,-0.298,1.7957,0.044,-0.0166,0.021,-40.15,-13.8,-7.1,178.33,1.74,-79.45,3015,2014-12-29 23:50:35:588
9.6388,-0.3111,1.7981,0.0034,-0.0555,0.1105,-39.65,-13.95,-7.05,178.33,1.86,-79.45,3315,2014-12-29 23:50:35:888
9.6418,-0.3036,1.7832,-0.0156,0.021,-0.1195,-40.25,-13.2,-5.65,174.49,1.77,-79.52,3614,2014-12-29 23:50:36:187
9.6561,-0.3435,1.6961,-0.1439,-0.148,0.0117,-40.0,-13.3,-5.7,175.47,1.82,-79.87,3914,2014-12-29 23:50:36:487
9.6667,-0.2838,1.6457,0.0534,0.0337,0.0223,-39.85,-14.15,-5.6,176.84,1.8,-80.28,4214,2014-12-29 23:50:36:787
9.6691,-0.2572,1.6355,-0.0192,-0.0433,-0.0442,-40.65,-13.75,-5.1,172.36,1.45,-80.25,4514,2014-12-29 23:50:37:087
9.6642,-0.2527,1.6654,0.1924,0.0853,0.2397,-40.75,-12.6,-4.75,172.19,1.44,-80.37,4814,2014-12-29 23:50:37:387
9.6474,-0.2703,1.7572,-0.0753,-0.0448,0.2488,-40.1,-13.55,-5.35,171.53,1.58,-79.68,5113,2014-12-29 23:50:37:686
9.6539,-0.3175,1.7136,0.044,0.0632,0.1585,-39.95,-13.1,-6.1,175.1,2.03,-79.72,5414,2014-12-29 23:50:37:987
9.6706,-0.2979,1.6204,-0.0695,-0.0629,-0.0464,-40.2,-13.65,-6.5,176.53,1.5,-80.18,5714,2014-12-29 23:50:38:287
9.667,-0.4887,1.5948,-0.0449,0.0922,-0.0251,-39.6,-13.95,-6.9,181.31,2.32,-80.58,6013,2014-12-29 23:50:38:586
9.6578,-0.6797,1.581,0.0732,0.3639,0.2278,-39.3,-12.35,-10.4,193.78,3.5,-80.66,6314,2014-12-29 23:50:38:887
9.6185,-0.7216,1.7885,-0.0257,0.3896,-0.072,-39.6,-8.4,-13.4,204.64,3.99,-79.44,6614,2014-12-29 23:50:39:187
9.6272,-1.1035,1.5279,-0.1078,0.6032,-0.1079,-39.25,-5.4,-15.2,222.81,5.31,-80.17,6914,2014-12-29 23:50:39:487
9.6512,-1.3355,1.1421,0.0527,0.9077,0.4446,-39.0,1.45,-17.4,249.68,7.82,-83.25,7214,2014-12-29 23:50:39:787
9.6783,-1.4056,0.7687,-0.069,0.8713,0.6272,-39.9,6.9,-15.85,274.34,8.33,-85.12,7514,2014-12-29 23:50:40:087
9.7154,-1.1168,0.7734,-0.0928,0.8481,0.401,-39.75,9.4,-14.25,291.63,6.54,-85.45,7814,2014-12-29 23:50:40:387
9.7209,-0.9236,0.9412,-0.071,0.4979,0.2414,-39.35,8.75,-15.1,293.55,5.7,-84.76,8114,2014-12-29 23:50:40:687
9.7166,-0.7679,1.1102,-0.0192,0.6264,0.2208,-39.8,9.1,-14.8,298.93,4.49,-83.48,8413,2014-12-29 23:50:40:986
9.7084,-0.2974,1.3765,-0.0608,0.0931,0.2358,-39.15,6.95,-16.2,294.31,2.94,-82.6,8714,2014-12-29 23:50:41:287
9.6617,0.6473,1.5707,0.1323,-0.6576,0.4284,-38.55,-1.05,-17.45,272.85,-2.1,-80.49,9014,2014-12-29 23:50:41:587
9.6892,0.924,1.2252,0.0602,-0.6148,0.4742,-39.05,-10.15,-14.2,235.66,-5.4,-82.79,9314,2014-12-29 23:50:41:887
9.7203,0.8522,1.011,-0.2013,-0.9821,0.5739,-39.2,-13.45,-10.3,222.37,-5.65,-83.18,9614,2014-12-29 23:50:42:187
9.7331,0.6248,1.0549,-0.006,-0.605,0.4179,-39.85,-14.35,-6.4,189.56,-4.14,-84.11,9914,2014-12-29 23:50:42:487
9.7236,0.5016,1.1971,-0.0951,-0.1558,0.3711,-39.6,-14.0,-7.0,189.82,-2.93,-82.98,10214,2014-12-29 23:50:42:787
9.7202,0.6362,1.161,-0.2079,0.1275,0.3471,-40.4,-13.95,-6.45,186.1,-3.72,-83.19,10514,2014-12-29 23:50:43:087
9.642,1.3195,1.2348,0.021,-0.6047,0.7062,-39.55,-16.75,-1.45,160.41,-7.73,-82.7,10814,2014-12-29 23:50:43:387
9.6244,1.5446,1.1043,0.0593,-0.7185,1.0453,-39.05,-17.5,4.05,141.61,-9.05,-83.28,11119,2014-12-29 23:50:43:692
9.6738,1.2647,1.026,-0.0639,-0.9658,1.228,-39.95,-12.1,9.8,116.0,-7.41,-83.95,11414,2014-12-29 23:50:43:987
9.7034,1.0507,0.9861,0.0286,-0.9062,0.8109,-40.0,-9.15,12.45,105.77,-6.57,-84.1,11714,2014-12-29 23:50:44:287
9.7215,0.7682,1.0661,-0.0516,-0.2995,0.4789,-40.0,-7.05,13.8,102.3,-4.49,-83.74,12014,2014-12-29 23:50:44:587
9.7109,0.7014,1.201,-0.056,-1.1903,0.7655,-39.95,-6.6,13.65,102.28,-4.44,-83.41,12314,2014-12-29 23:50:44:887
9.6651,-0.1211,1.6747,-0.0488,0.0187,0.7766,-40.4,-8.25,12.1,110.76,-1.3,-81.39,12615,2014-12-29 23:50:45:188
9.5624,-0.8053,2.0359,0.0105,1.2294,0.758,-40.75,-13.1,2.4,147.09,4.71,-77.98,12914,2014-12-29 23:50:45:487
9.5792,-0.8956,1.9157,0.0361,1.2794,0.2299,-40.2,-13.6,-5.45,169.8,5.5,-78.32,13214,2014-12-29 23:50:45:787
9.5938,-0.5797,1.9639,0.0096,0.5923,0.3636,-39.85,-13.5,-8.2,179.31,3.39,-78.43,13514,2014-12-29 23:50:46:087
9.6061,-0.4503,1.9373,0.2581,0.3332,0.8034,-40.15,-13.8,-7.9,178.89,2.8,-78.26,13814,2014-12-29 23:50:46:387
9.7947,-0.5375,-0.0948,-0.1382,0.3862,0.3919,-40.65,-13.25,-4.25,181.95,3.02,-85.14,14114,2014-12-29 23:50:46:687
8.8246,-0.8911,-4.1914,-1.2233,0.231,0.2856,-38.8,-11.55,14.05,194.59,5.21,-115.41,14414,2014-12-29 23:50:46:987
6.2625,-0.439,-7.5382,-1.0408,0.1602,0.5148,-31.1,-12.1,26.25,207.7,2.57,-140.28,14713,2014-12-29 23:50:47:286
5.4283,-0.3742,-8.1627,-0.805,0.1691,0.8769,-24.7,-12.75,32.4,192.03,2.19,-146.38,15015,2014-12-29 23:50:47:588
5.6217,-0.3554,-8.0315,-0.9381,0.0739,0.5923,-24.45,-12.15,32.15,185.58,2.08,-145.01,15314,2014-12-29 23:50:47:887
7.6684,-0.5303,-6.0952,-0.7815,0.1221,1.0092,-30.45,-11.0,27.95,166.15,3.1,-128.48,15614,2014-12-29 23:50:48:187
9.5498,-0.3392,-2.2182,-0.2497,0.0873,0.3319,-37.75,-11.7,15.25,175.64,2.36,-110.08,15914,2014-12-29 23:50:48:487
9.7855,-0.1759,0.669,-0.0543,0.0162,0.2084,-39.85,-12.75,-2.85,181.11,1.03,-86.09,16214,2014-12-29 23:50:48:787
9.7187,-0.1163,1.33,-0.0051,0.063,0.2335,-39.7,-11.85,-4.55,180.05,0.71,-82.89,16513,2014-12-29 23:50:49:086
9.6862,-0.1292,1.5479,-0.1079,-0.0135,0.0618,-39.3,-12.3,-5.4,174.45,0.75,-80.92,16814,2014-12-29 23:50:49:387
9.0696,-0.109,3.7368,0.1135,0.0237,0.1575,-36.85,-12.3,-14.3,174.71,0.64,-67.61,17114,2014-12-29 23:50:49:687
7.5934,-0.0659,6.2104,0.6669,0.0028,0.4604,-33.6,-11.8,-21.1,173.61,0.59,-62.05,17414,2014-12-29 23:50:49:987
5.3024,0.0021,8.2534,0.9586,0.0942,0.9347,-23.65,-12.4,-31.35,157.76,-0.02,-38.8,17714,2014-12-29 23:50:50:287
4.4658,-0.0507,8.7343,0.8534,0.0424,0.9418,-17.95,-12.95,-35.8,181.57,0.3,-27.08,18015,2014-12-29 23:50:50:588
4.583,-0.0334,8.6736,0.6995,0.0675,0.8886,-17.5,-12.8,-35.5,184.7,0.24,-26.95,18314,2014-12-29 23:50:50:887
6.2709,-0.1668,7.5419,0.5492,0.1251,0.9315,-21.5,-12.1,-33.2,201.36,0.97,-39.74,18613,2014-12-29 23:50:51:186
8.886,-0.0989,4.1551,-0.1268,0.0495,0.273,-31.95,-12.25,-24.0,191.12,0.74,-56.66,18914,2014-12-29 23:50:51:487
9.613,-0.0945,1.9533,0.0168,0.0636,0.3748,-38.9,-12.25,-10.4,189.33,0.55,-78.51,19216,2014-12-29 23:50:51:789
9.6147,0.0241,1.9476,-0.0738,-0.098,0.3343,-39.5,-12.5,-9.9,189.5,0.38,-78.54,19514,2014-12-29 23:50:52:087
9.4126,1.9141,1.9934,-0.104,0.0612,0.075,-37.65,-17.0,-8.75,185.87,-11.25,-78.04,19814,2014-12-29 23:50:52:387
8.1037,5.1788,1.9349,0.2,0.1546,0.3414,-30.6,-27.45,-9.45,189.92,-25.12,-77.15,20113,2014-12-29 23:50:52:686
6.2672,7.3027,1.9042,0.3413,0.2132,-0.0729,-16.2,-37.45,-8.0,194.54,-48.11,-73.1,20414,2014-12-29 23:50:52:987
4.4693,8.4794,2.0876,-0.2385,0.3917,-0.4893,-9.5,-40.0,-9.3,201.59,-55.82,-68.49,20714,2014-12-29 23:50:53:287
2.2085,9.341,2.0256,0.4323,0.5289,0.2407,2.55,-41.0,-10.95,233.31,-72.21,-47.47,21014,2014-12-29 23:50:53:587
2.0108,9.4051,1.9329,0.0756,0.2507,0.0828,6.4,-41.2,-8.6,227.3,-73.48,-46.13,21314,2014-12-29 23:50:53:887
3.3491,9.0756,1.6277,0.3795,0.4841,-0.1677,3.95,-42.25,-7.8,216.73,-71.78,-54.77,21614,2014-12-29 23:50:54:187
6.975,6.8294,0.971,-0.5919,-0.0135,0.3341,-15.9,-38.45,-3.65,186.32,-44.12,-82.07,21914,2014-12-29 23:50:54:487
9.1051,3.4936,1.061,-0.6859,-0.0557,-0.0524,-27.05,-31.95,-4.25,180.32,-35.68,-82.12,22214,2014-12-29 23:50:54:787
9.6525,0.7469,1.5831,-0.1877,-0.1861,0.132,-37.65,-18.9,-4.7,175.66,-4.37,-80.69,22514,2014-12-29 23:50:55:087
9.665,-0.0385,1.6797,0.0091,-0.0117,0.0124,-39.3,-13.6,-6.45,176.95,-0.25,-80.19,22815,2014-12-29 23:50:55:388
9.6182,-0.3857,1.8904,0.2251,0.1403,-0.0091,-39.65,-12.15,-7.7,180.57,2.25,-78.88,23114,2014-12-29 23:50:55:687
9.1054,-2.92,2.1908,0.3691,0.0275,0.3675,-41.95,-0.1,-9.15,175.19,17.32,-76.47,23414,2014-12-29 23:50:55:987
7.4316,-5.9714,2.313,-0.0052,-0.0126,0.266,-40.3,13.0,-10.1,170.99,37.5,-72.71,23714,2014-12-29 23:50:56:287
5.0075,-8.1955,1.9991,-0.2398,0.0669,-0.5979,-35.05,27.55,-7.75,158.72,56.66,-68.24,24015,2014-12-29 23:50:56:588
2.3167,-9.2023,2.4878,-0.378,-0.4576,0.2253,-27.15,35.0,-9.0,129.69,69.72,-42.96,24315,2014-12-29 23:50:56:888
0.9471,-9.5006,2.2536,0.1015,-0.1735,0.2497,-19.8,40.6,-8.7,109.6,75.57,-22.8,24614,2014-12-29 23:50:57:187
0.7796,-9.5615,2.0507,-0.7645,-0.4784,0.0989,-19.5,41.15,-8.1,107.49,77.08,-20.81,24914,2014-12-29 23:50:57:487
3.9856,-8.7779,1.8162,0.0683,0.2039,0.5875,-27.15,35.55,-7.6,156.2,63.48,-65.5,25214,2014-12-29 23:50:57:787
9.2057,-3.0126,1.5538,-0.1431,0.4811,-0.5522,-40.1,17.8,-6.15,161.14,27.7,-80.09,25513,2014-12-29 23:50:58:086
9.5677,-0.5995,2.0823,-0.4262,-0.3393,-0.2474,-41.0,-8.1,-7.55,174.41,10.41,-79.27,25815,2014-12-29 23:50:58:388
9.4789,-0.0735,2.5257,-0.0434,-0.1012,0.2426,-38.95,-13.05,-10.1,178.37,0.43,-75.08,26114,2014-12-29 23:50:58:687
9.4949,-0.1918,2.4588,0.0687,0.0745,0.1211,-39.25,-12.85,-9.65,179.07,1.25,-75.3,26414,2014-12-29 23:50:58:987
9.5174,-0.1331,2.2248,0.3137,0.0301,2.3839,-39.45,-12.75,-9.25,177.26,1.44,-76.05,26715,2014-12-29 23:50:59:288
9.5471,-0.2182,2.2447,0.104,6.0E-4,0.0814,-39.2,-13.65,-8.9,179.44,1.29,-76.8,27014,2014-12-29 23:50:59:587
9.5421,-0.2027,2.2676,0.0915,-0.0154,0.137,-38.9,-13.85,-10.2,179.21,1.32,-76.73,27314,2014-12-29 23:50:59:887
9.5346,-0.181,2.3007,0.1148,-0.0454,0.2167,-38.0,-15.3,-9.6,182.94,1.06,-76.43,27614,2014-12-29 23:51:00:187
9.5358,-0.1792,2.2959,0.0251,-0.0039,0.1512,-38.45,-14.7,-8.9,179.27,1.06,-76.38,27914,2014-12-29 23:51:00:487
9.5497,-0.1114,2.2414,0.0355,-0.0219,0.2031,-38.25,-15.15,-9.15,180.29,0.65,-76.79,28214,2014-12-29 23:51:00:787
9.5491,-0.0687,2.2462,0.0567,0.0082,0.0759,-38.65,-15.8,-9.15,179.56,0.38,-76.82,28514,2014-12-29 23:51:01:087
9.5497,-0.0829,2.2429,0.1581,-0.009,0.1714,-38.25,-15.65,-8.95,180.16,0.42,-76.74,28814,2014-12-29 23:51:01:387
9.5512,-0.0954,2.2359,0.0231,-0.0395,0.0242,-38.65,-15.0,-10.65,186.75,0.56,-76.82,29114,2014-12-29 23:51:01:687
9.5594,-0.0587,2.2019,0.0475,-0.0181,0.2344,-37.8,-16.1,-10.25,184.25,0.4,-77.02,29414,2014-12-29 23:51:01:987
9.5552,-0.0714,2.2196,-0.0061,0.0296,0.0389,-39.45,-13.55,-9.0,179.95,0.36,-76.99,29714,2014-12-29 23:51:02:287
9.5403,-0.0924,2.2825,0.2075,0.0617,0.1802,-38.9,-13.2,-9.45,178.78,0.54,-76.6,30013,2014-12-29 23:51:02:586
9.5388,-0.1302,2.2869,-0.1009,-0.0651,-1.8349,-39.15,-14.8,-9.0,179.68,0.72,-76.88,30314,2014-12-29 23:51:02:887
9.5623,-0.1268,2.1865,-0.0955,0.0126,-0.0383,-38.95,-14.25,-9.7,183.98,0.66,-77.05,30614,2014-12-29 23:51:03:187
9.5572,-0.1169,2.2096,0.0672,-0.1102,-0.0139,-38.9,-14.6,-9.6,183.54,0.64,-76.98,30916,2014-12-29 23:51:03:489
9.556,-0.1025,2.2154,-0.0962,-0.1268,0.1437,-39.6,-13.55,-9.45,178.94,0.6,-76.95,31213,2014-12-29 23:51:03:786
9.5564,-0.0891,2.2136,0.2925,0.2257,-0.8375,-39.6,-13.35,-9.7,182.7,0.5,-76.84,31514,2014-12-29 23:51:04:087
9.5486,-0.1528,2.2435,0.153,-0.3274,0.5887,-39.0,-13.8,-9.7,183.23,0.7,-76.78,31814,2014-12-29 23:51:04:387
9.5476,-0.1476,2.2486,0.0256,0.1257,0.0882,-38.35,-14.9,-10.05,183.14,0.96,-76.77,32114,2014-12-29 23:51:04:687
9.5537,-0.1118,2.2242,0.0073,-0.0467,0.1163,-38.45,-14.45,-9.25,180.59,0.65,-76.89,32414,2014-12-29 23:51:04:987
9.5549,-0.1184,2.2191,0.057,-0.0617,0.0391,-39.0,-14.1,-9.3,179.62,0.67,-76.87,32714,2014-12-29 23:51:05:287
9.5715,-0.1168,2.1462,0.1557,-0.026,0.09,-39.35,-13.8,-8.95,180.98,0.68,-77.36,33014,2014-12-29 23:51:05:587
9.5771,-0.1069,2.1221,0.0525,-0.1193,-1.7799,-39.25,-14.3,-9.7,181.15,0.61,-77.39,33314,2014-12-29 23:51:05:887